{"resourceType":"Bundle","id":"tests-1f7845f8-5fea-47d7-b531-394aee6bd8d5-bundle","type":"transaction","entry":[{"resource":{"resourceType":"MeasureReport","id":"cec462bb-e6a9-4fa6-b684-25233dcce2ed","meta":{"profile":["http://hl7.org/fhir/us/cqfmeasures/StructureDefinition/test-case-cqfm"]},"contained":[{"resourceType":"Parameters","id":"4def6971-f6a4-449d-8a4a-00489fb74312-parameters","parameter":[{"name":"subject","valueString":"1f7845f8-5fea-47d7-b531-394aee6bd8d5"}]}],"extension":[{"url":"http://hl7.org/fhir/us/cqfmeasures/StructureDefinition/cqfm-inputParameters","valueReference":{"reference":"#4def6971-f6a4-449d-8a4a-00489fb74312-parameters"}},{"url":"http://hl7.org/fhir/us/cqfmeasures/StructureDefinition/cqfm-testCaseDescription","valueMarkdown":"Patient age 64 (edge case)."}],"modifierExtension":[{"url":"http://hl7.org/fhir/us/cqfmeasures/StructureDefinition/cqfm-isTestCase","valueBoolean":true}],"status":"complete","type":"individual","measure":"https://madie.cms.gov/Measure/FallsScreeningForFutureFallRiskFHIR","period":{"start":"2025-01-01","end":"2025-12-31"},"group":[{"id":"66460d21a7a1805d3b737638","population":[{"id":"2D808FE0-EB48-4C22-AE0B-30D8366063DE","code":{"coding":[{"system":"http://terminology.hl7.org/CodeSystem/measure-population","code":"initial-population","display":"Initial Population"}]},"count":0},{"id":"709305F8-74DE-4F12-9CC8-1A2B8FE03B2B","code":{"coding":[{"system":"http://terminology.hl7.org/CodeSystem/measure-population","code":"denominator","display":"Denominator"}]},"count":0},{"id":"4F4250DE-FB16-4B83-AA88-5ADBB5E7BF81","code":{"coding":[{"system":"http://terminology.hl7.org/CodeSystem/measure-population","code":"denominator-exclusion","display":"Denominator Exclusion"}]},"count":0},{"id":"E1451EC9-61D2-464A-9591-57DB230076A1","code":{"coding":[{"system":"http://terminology.hl7.org/CodeSystem/measure-population","code":"numerator","display":"Numerator"}]},"count":0}],"measureScore":{"value":1}}],"evaluatedResource":[{"reference":"Patient/1f7845f8-5fea-47d7-b531-394aee6bd8d5"},{"reference":"Encounter/01b20971-5606-4a2f-bb27-168a9ef0658d"}]},"request":{"method":"PUT","url":"MeasureReport/cec462bb-e6a9-4fa6-b684-25233dcce2ed"}},{"resource":{"resourceType":"Encounter","id":"01b20971-5606-4a2f-bb27-168a9ef0658d","meta":{"profile":["http://hl7.org/fhir/us/qicore/StructureDefinition/qicore-encounter"]},"status":"finished","class":{"system":"http://terminology.hl7.org/CodeSystem/v3-ActCode","code":"AMB","display":"ambulatory"},"type":[{"coding":[{"system":"http://snomed.info/sct","code":"78831002","display":"Comprehensive eye examination (procedure)"}]}],"subject":{"reference":"Patient/1f7845f8-5fea-47d7-b531-394aee6bd8d5"},"period":{"start":"2025-01-01T00:00:00.000Z","end":"2025-01-01T00:15:00.000Z"}},"request":{"method":"PUT","url":"Encounter/01b20971-5606-4a2f-bb27-168a9ef0658d"}},{"resource":{"resourceType":"Patient","id":"1f7845f8-5fea-47d7-b531-394aee6bd8d5","meta":{"profile":["http://hl7.org/fhir/us/qicore/StructureDefinition/qicore-patient"]},"extension":[{"url":"http://hl7.org/fhir/us/core/StructureDefinition/us-core-race","extension":[{"url":"ombCategory","valueCoding":{"system":"urn:oid:2.16.840.1.113883.6.238","code":"2028-9","display":"Asian"}},{"url":"text","valueString":"Asian"}]},{"url":"http://hl7.org/fhir/us/core/StructureDefinition/us-core-ethnicity","extension":[{"url":"ombCategory","valueCoding":{"system":"urn:oid:2.16.840.1.113883.6.238","code":"2135-2","display":"Hispanic or Latino"}},{"url":"text","valueString":"Hispanic or Latino"}]}],"identifier":[{"system":"http://hospital.smarthealthit.org","value":"999999995"}],"name":[{"family":"Bertha","given":["Betty"]}],"gender":"female","birthDate":"1960-01-02"},"request":{"method":"PUT","url":"Patient/1f7845f8-5fea-47d7-b531-394aee6bd8d5"}}]}