{"resourceType":"Bundle","id":"tests-b6e3d7d2-0ce1-4aaf-a575-78dbc2402299-bundle","type":"transaction","entry":[{"resource":{"resourceType":"MeasureReport","id":"e78f9eba-e43a-4ba2-9ed7-d6a3584749ca","meta":{"profile":["http://hl7.org/fhir/us/cqfmeasures/StructureDefinition/test-case-cqfm"]},"contained":[{"resourceType":"Parameters","id":"1c68f9e3-bad9-4995-9a35-6693415d8a3a-parameters","parameter":[{"name":"subject","valueString":"b6e3d7d2-0ce1-4aaf-a575-78dbc2402299"}]}],"extension":[{"url":"http://hl7.org/fhir/us/cqfmeasures/StructureDefinition/cqfm-inputParameters","valueReference":{"reference":"#1c68f9e3-bad9-4995-9a35-6693415d8a3a-parameters"}},{"url":"http://hl7.org/fhir/us/cqfmeasures/StructureDefinition/cqfm-testCaseDescription","valueMarkdown":"Future fall risk screening ends before MP (edge case)."}],"modifierExtension":[{"url":"http://hl7.org/fhir/us/cqfmeasures/StructureDefinition/cqfm-isTestCase","valueBoolean":true}],"status":"complete","type":"individual","measure":"https://madie.cms.gov/Measure/FallsScreeningForFutureFallRiskFHIR","period":{"start":"2025-01-01","end":"2025-12-31"},"group":[{"id":"66460d21a7a1805d3b737638","population":[{"id":"2D808FE0-EB48-4C22-AE0B-30D8366063DE","code":{"coding":[{"system":"http://terminology.hl7.org/CodeSystem/measure-population","code":"initial-population","display":"Initial Population"}]},"count":1},{"id":"709305F8-74DE-4F12-9CC8-1A2B8FE03B2B","code":{"coding":[{"system":"http://terminology.hl7.org/CodeSystem/measure-population","code":"denominator","display":"Denominator"}]},"count":1},{"id":"4F4250DE-FB16-4B83-AA88-5ADBB5E7BF81","code":{"coding":[{"system":"http://terminology.hl7.org/CodeSystem/measure-population","code":"denominator-exclusion","display":"Denominator Exclusion"}]},"count":0},{"id":"E1451EC9-61D2-464A-9591-57DB230076A1","code":{"coding":[{"system":"http://terminology.hl7.org/CodeSystem/measure-population","code":"numerator","display":"Numerator"}]},"count":0}],"measureScore":{"value":1}}],"evaluatedResource":[{"reference":"Patient/b6e3d7d2-0ce1-4aaf-a575-78dbc2402299"},{"reference":"Encounter/4105a571-e1e8-46f1-abe4-5a5a47393123"},{"reference":"Observation/f9235483-95f0-463a-ba02-c676f44cf236"}]},"request":{"method":"PUT","url":"MeasureReport/e78f9eba-e43a-4ba2-9ed7-d6a3584749ca"}},{"resource":{"resourceType":"Encounter","id":"4105a571-e1e8-46f1-abe4-5a5a47393123","meta":{"profile":["http://hl7.org/fhir/us/qicore/StructureDefinition/qicore-encounter"]},"status":"finished","class":{"system":"http://terminology.hl7.org/CodeSystem/v3-ActCode","code":"AMB","display":"ambulatory"},"type":[{"coding":[{"system":"http://snomed.info/sct","code":"78831002","display":"Comprehensive eye examination (procedure)"}]}],"subject":{"reference":"Patient/b6e3d7d2-0ce1-4aaf-a575-78dbc2402299"},"period":{"start":"2025-01-01T00:00:00.000Z","end":"2025-01-01T00:15:00.000Z"}},"request":{"method":"PUT","url":"Encounter/4105a571-e1e8-46f1-abe4-5a5a47393123"}},{"resource":{"resourceType":"Patient","id":"b6e3d7d2-0ce1-4aaf-a575-78dbc2402299","meta":{"profile":["http://hl7.org/fhir/us/qicore/StructureDefinition/qicore-patient"]},"extension":[{"url":"http://hl7.org/fhir/us/core/StructureDefinition/us-core-race","extension":[{"url":"ombCategory","valueCoding":{"system":"urn:oid:2.16.840.1.113883.6.238","code":"2028-9","display":"Asian"}},{"url":"text","valueString":"Asian"}]},{"url":"http://hl7.org/fhir/us/core/StructureDefinition/us-core-ethnicity","extension":[{"url":"ombCategory","valueCoding":{"system":"urn:oid:2.16.840.1.113883.6.238","code":"2135-2","display":"Hispanic or Latino"}},{"url":"text","valueString":"Hispanic or Latino"}]}],"identifier":[{"system":"http://hospital.smarthealthit.org","value":"999999995"}],"name":[{"family":"Bertha","given":["Betty"]}],"gender":"female","birthDate":"1960-01-01"},"request":{"method":"PUT","url":"Patient/b6e3d7d2-0ce1-4aaf-a575-78dbc2402299"}},{"resource":{"resourceType":"Observation","id":"f9235483-95f0-463a-ba02-c676f44cf236","meta":{"profile":["http://hl7.org/fhir/us/qicore/StructureDefinition/qicore-observation"]},"status":"final","category":[{"coding":[{"system":"http://terminology.hl7.org/CodeSystem/observation-category","code":"survey"}]}],"code":{"coding":[{"system":"http://loinc.org","code":"52552-7","display":"Falls in the past year"}]},"subject":{"reference":"Patient/b6e3d7d2-0ce1-4aaf-a575-78dbc2402299"},"effectivePeriod":{"start":"2024-12-31T23:59:00.000Z","end":"2024-12-31T23:59:59.000Z"},"valueCodeableConcept":{"coding":[{"system":"http://snomed.info/sct","code":"373066001","display":"Yes (qualifier value)"}]}},"request":{"method":"PUT","url":"Observation/f9235483-95f0-463a-ba02-c676f44cf236"}}]}