{"resourceType":"Bundle","id":"tests-7c3805d3-18b6-4ce5-be54-f0d9bc05c712-bundle","type":"transaction","entry":[{"resource":{"resourceType":"MeasureReport","id":"45fc0037-6b39-4ddb-a056-e0a61697222c","meta":{"profile":["http://hl7.org/fhir/us/cqfmeasures/StructureDefinition/test-case-cqfm"]},"contained":[{"resourceType":"Parameters","id":"4b605d5c-ff29-4362-a097-085050dc340a-parameters","parameter":[{"name":"subject","valueString":"7c3805d3-18b6-4ce5-be54-f0d9bc05c712"}]}],"extension":[{"url":"http://hl7.org/fhir/us/cqfmeasures/StructureDefinition/cqfm-inputParameters","valueReference":{"reference":"#4b605d5c-ff29-4362-a097-085050dc340a-parameters"}},{"url":"http://hl7.org/fhir/us/cqfmeasures/StructureDefinition/cqfm-testCaseDescription","valueMarkdown":"Discharge nursing services during MP"}],"modifierExtension":[{"url":"http://hl7.org/fhir/us/cqfmeasures/StructureDefinition/cqfm-isTestCase","valueBoolean":true}],"status":"complete","type":"individual","measure":"https://madie.cms.gov/Measure/FallsScreeningForFutureFallRiskFHIR","period":{"start":"2025-01-01","end":"2025-12-31"},"group":[{"id":"66460d21a7a1805d3b737638","population":[{"id":"2D808FE0-EB48-4C22-AE0B-30D8366063DE","code":{"coding":[{"system":"http://terminology.hl7.org/CodeSystem/measure-population","code":"initial-population","display":"Initial Population"}]},"count":1},{"id":"709305F8-74DE-4F12-9CC8-1A2B8FE03B2B","code":{"coding":[{"system":"http://terminology.hl7.org/CodeSystem/measure-population","code":"denominator","display":"Denominator"}]},"count":1},{"id":"4F4250DE-FB16-4B83-AA88-5ADBB5E7BF81","code":{"coding":[{"system":"http://terminology.hl7.org/CodeSystem/measure-population","code":"denominator-exclusion","display":"Denominator Exclusion"}]},"count":0},{"id":"E1451EC9-61D2-464A-9591-57DB230076A1","code":{"coding":[{"system":"http://terminology.hl7.org/CodeSystem/measure-population","code":"numerator","display":"Numerator"}]},"count":0}],"measureScore":{"value":1}}],"evaluatedResource":[{"reference":"Patient/7c3805d3-18b6-4ce5-be54-f0d9bc05c712"},{"reference":"Encounter/287e7259-8def-4e1d-b0e3-b39be5ae41ba"}]},"request":{"method":"PUT","url":"MeasureReport/45fc0037-6b39-4ddb-a056-e0a61697222c"}},{"resource":{"resourceType":"Encounter","id":"287e7259-8def-4e1d-b0e3-b39be5ae41ba","meta":{"profile":["http://hl7.org/fhir/us/qicore/StructureDefinition/qicore-encounter"]},"status":"finished","class":{"system":"http://terminology.hl7.org/CodeSystem/v3-ActCode","code":"AMB","display":"ambulatory"},"type":[{"coding":[{"system":"http://www.ama-assn.org/go/cpt","version":"2024","code":"99315","display":"Nursing facility discharge management; 30 minutes or less total time on the date of the encounter"}]}],"subject":{"reference":"Patient/7c3805d3-18b6-4ce5-be54-f0d9bc05c712"},"period":{"start":"2025-01-01T00:00:00.000Z","end":"2025-01-01T01:00:00.000Z"}},"request":{"method":"PUT","url":"Encounter/287e7259-8def-4e1d-b0e3-b39be5ae41ba"}},{"resource":{"resourceType":"Patient","id":"7c3805d3-18b6-4ce5-be54-f0d9bc05c712","meta":{"profile":["http://hl7.org/fhir/us/qicore/StructureDefinition/qicore-patient"]},"extension":[{"url":"http://hl7.org/fhir/us/core/StructureDefinition/us-core-race","extension":[{"url":"ombCategory","valueCoding":{"system":"urn:oid:2.16.840.1.113883.6.238","code":"2028-9","display":"Asian","userSelected":true}},{"url":"text","valueString":"Asian"}]},{"url":"http://hl7.org/fhir/us/core/StructureDefinition/us-core-ethnicity","extension":[{"url":"ombCategory","valueCoding":{"system":"urn:oid:2.16.840.1.113883.6.238","code":"2135-2","display":"Hispanic or Latino","userSelected":true}},{"url":"text","valueString":"Hispanic or Latino"}]}],"identifier":[{"type":{"coding":[{"system":"http://terminology.hl7.org/CodeSystem/v2-0203","code":"MR"}]},"system":"http://hospital.smarthealthit.org","value":"999999995"}],"name":[{"family":"Bertha","given":["Betty"]}],"gender":"female","birthDate":"1960-01-01"},"request":{"method":"PUT","url":"Patient/7c3805d3-18b6-4ce5-be54-f0d9bc05c712"}}]}