{"resourceType":"Bundle","id":"tests-67723351-e3ad-40b1-be93-e4b7cd7b92f0-bundle","type":"transaction","entry":[{"resource":{"resourceType":"MeasureReport","id":"3a2c2a5c-c09d-4d39-bf3a-dda3aa0b7469","meta":{"profile":["http://hl7.org/fhir/us/cqfmeasures/StructureDefinition/test-case-cqfm"]},"contained":[{"resourceType":"Parameters","id":"63e280b6-aa33-4990-abab-298bd05d029f-parameters","parameter":[{"name":"subject","valueString":"67723351-e3ad-40b1-be93-e4b7cd7b92f0"}]}],"extension":[{"url":"http://hl7.org/fhir/us/cqfmeasures/StructureDefinition/cqfm-inputParameters","valueReference":{"reference":"#63e280b6-aa33-4990-abab-298bd05d029f-parameters"}},{"url":"http://hl7.org/fhir/us/cqfmeasures/StructureDefinition/cqfm-testCaseDescription","valueMarkdown":"Patient that has a future falls risk screening done."}],"modifierExtension":[{"url":"http://hl7.org/fhir/us/cqfmeasures/StructureDefinition/cqfm-isTestCase","valueBoolean":true}],"status":"complete","type":"individual","measure":"https://madie.cms.gov/Measure/FallsScreeningForFutureFallRiskFHIR","period":{"start":"2025-01-01","end":"2025-12-31"},"group":[{"id":"66460d21a7a1805d3b737638","population":[{"id":"2D808FE0-EB48-4C22-AE0B-30D8366063DE","code":{"coding":[{"system":"http://terminology.hl7.org/CodeSystem/measure-population","code":"initial-population","display":"Initial Population"}]},"count":1},{"id":"709305F8-74DE-4F12-9CC8-1A2B8FE03B2B","code":{"coding":[{"system":"http://terminology.hl7.org/CodeSystem/measure-population","code":"denominator","display":"Denominator"}]},"count":1},{"id":"4F4250DE-FB16-4B83-AA88-5ADBB5E7BF81","code":{"coding":[{"system":"http://terminology.hl7.org/CodeSystem/measure-population","code":"denominator-exclusion","display":"Denominator Exclusion"}]},"count":0},{"id":"E1451EC9-61D2-464A-9591-57DB230076A1","code":{"coding":[{"system":"http://terminology.hl7.org/CodeSystem/measure-population","code":"numerator","display":"Numerator"}]},"count":1}],"measureScore":{"value":1}}],"evaluatedResource":[{"reference":"Patient/67723351-e3ad-40b1-be93-e4b7cd7b92f0"},{"reference":"Encounter/afacd35e-1710-48f5-803b-9ca5ad96491a"},{"reference":"Observation/cf1c7ac7-c958-49eb-b9db-33872220dc33"}]},"request":{"method":"PUT","url":"MeasureReport/3a2c2a5c-c09d-4d39-bf3a-dda3aa0b7469"}},{"resource":{"resourceType":"Encounter","id":"afacd35e-1710-48f5-803b-9ca5ad96491a","meta":{"profile":["http://hl7.org/fhir/us/qicore/StructureDefinition/qicore-encounter"]},"status":"finished","class":{"system":"http://terminology.hl7.org/CodeSystem/v3-ActCode","code":"AMB","display":"ambulatory"},"type":[{"coding":[{"system":"http://snomed.info/sct","code":"78831002","display":"Comprehensive eye examination (procedure)"}]}],"subject":{"reference":"Patient/67723351-e3ad-40b1-be93-e4b7cd7b92f0"},"period":{"start":"2025-01-01T00:00:00.000Z","end":"2025-01-01T00:15:00.000Z"}},"request":{"method":"PUT","url":"Encounter/afacd35e-1710-48f5-803b-9ca5ad96491a"}},{"resource":{"resourceType":"Patient","id":"67723351-e3ad-40b1-be93-e4b7cd7b92f0","meta":{"profile":["http://hl7.org/fhir/us/qicore/StructureDefinition/qicore-patient"]},"extension":[{"url":"http://hl7.org/fhir/us/core/StructureDefinition/us-core-race","extension":[{"url":"ombCategory","valueCoding":{"system":"urn:oid:2.16.840.1.113883.6.238","code":"2028-9","display":"Asian"}},{"url":"text","valueString":"Asian"}]},{"url":"http://hl7.org/fhir/us/core/StructureDefinition/us-core-ethnicity","extension":[{"url":"ombCategory","valueCoding":{"system":"urn:oid:2.16.840.1.113883.6.238","code":"2135-2","display":"Hispanic or Latino"}},{"url":"text","valueString":"Hispanic or Latino"}]}],"identifier":[{"system":"http://hospital.smarthealthit.org","value":"999999995"}],"name":[{"family":"Bertha","given":["Betty"]}],"gender":"female","birthDate":"1960-01-01"},"request":{"method":"PUT","url":"Patient/67723351-e3ad-40b1-be93-e4b7cd7b92f0"}},{"resource":{"resourceType":"Observation","id":"cf1c7ac7-c958-49eb-b9db-33872220dc33","meta":{"profile":["http://hl7.org/fhir/us/qicore/StructureDefinition/qicore-observation"]},"status":"final","category":[{"coding":[{"system":"http://terminology.hl7.org/CodeSystem/observation-category","code":"survey"}]}],"code":{"coding":[{"system":"http://loinc.org","code":"52552-7","display":"Falls in the past year"}]},"subject":{"reference":"Patient/67723351-e3ad-40b1-be93-e4b7cd7b92f0"},"effectivePeriod":{"start":"2025-01-01T00:00:00.000Z","end":"2025-01-01T00:15:00.000Z"},"valueCodeableConcept":{"coding":[{"system":"http://snomed.info/sct","code":"373066001","display":"Yes (qualifier value)"}]}},"request":{"method":"PUT","url":"Observation/cf1c7ac7-c958-49eb-b9db-33872220dc33"}}]}