{"resourceType":"Bundle","id":"tests-1b089ab9-8539-4638-b58b-c33c2ca87e42-bundle","type":"transaction","entry":[{"resource":{"resourceType":"MeasureReport","id":"99db9849-14e6-4546-8bca-49485e9724e3","meta":{"profile":["http://hl7.org/fhir/us/cqfmeasures/StructureDefinition/test-case-cqfm"]},"contained":[{"resourceType":"Parameters","id":"4b576023-5ba8-4e92-8324-ec8d49f67ffd-parameters","parameter":[{"name":"subject","valueString":"1b089ab9-8539-4638-b58b-c33c2ca87e42"}]}],"extension":[{"url":"http://hl7.org/fhir/us/cqfmeasures/StructureDefinition/cqfm-inputParameters","valueReference":{"reference":"#4b576023-5ba8-4e92-8324-ec8d49f67ffd-parameters"}},{"url":"http://hl7.org/fhir/us/cqfmeasures/StructureDefinition/cqfm-testCaseDescription","valueMarkdown":"Occupational therapy evaluation during MP"}],"modifierExtension":[{"url":"http://hl7.org/fhir/us/cqfmeasures/StructureDefinition/cqfm-isTestCase","valueBoolean":true}],"status":"complete","type":"individual","measure":"https://madie.cms.gov/Measure/FallsScreeningForFutureFallRiskFHIR","period":{"start":"2025-01-01","end":"2025-12-31"},"group":[{"id":"66460d21a7a1805d3b737638","population":[{"id":"2D808FE0-EB48-4C22-AE0B-30D8366063DE","code":{"coding":[{"system":"http://terminology.hl7.org/CodeSystem/measure-population","code":"initial-population","display":"Initial Population"}]},"count":1},{"id":"709305F8-74DE-4F12-9CC8-1A2B8FE03B2B","code":{"coding":[{"system":"http://terminology.hl7.org/CodeSystem/measure-population","code":"denominator","display":"Denominator"}]},"count":1},{"id":"4F4250DE-FB16-4B83-AA88-5ADBB5E7BF81","code":{"coding":[{"system":"http://terminology.hl7.org/CodeSystem/measure-population","code":"denominator-exclusion","display":"Denominator Exclusion"}]},"count":0},{"id":"E1451EC9-61D2-464A-9591-57DB230076A1","code":{"coding":[{"system":"http://terminology.hl7.org/CodeSystem/measure-population","code":"numerator","display":"Numerator"}]},"count":0}],"measureScore":{"value":1}}],"evaluatedResource":[{"reference":"Patient/1b089ab9-8539-4638-b58b-c33c2ca87e42"},{"reference":"Encounter/05ecb812-4874-41b7-9341-1f0e3deab3ca"}]},"request":{"method":"PUT","url":"MeasureReport/99db9849-14e6-4546-8bca-49485e9724e3"}},{"resource":{"resourceType":"Encounter","id":"05ecb812-4874-41b7-9341-1f0e3deab3ca","meta":{"profile":["http://hl7.org/fhir/us/qicore/StructureDefinition/qicore-encounter"]},"status":"finished","class":{"system":"http://terminology.hl7.org/CodeSystem/v3-ActCode","code":"AMB","display":"ambulatory"},"type":[{"coding":[{"system":"http://snomed.info/sct","code":"410155007","display":"Occupational therapy assessment (procedure)"}]}],"subject":{"reference":"Patient/1b089ab9-8539-4638-b58b-c33c2ca87e42"},"period":{"start":"2025-01-01T00:00:00.000Z","end":"2025-01-01T01:00:00.000Z"}},"request":{"method":"PUT","url":"Encounter/05ecb812-4874-41b7-9341-1f0e3deab3ca"}},{"resource":{"resourceType":"Patient","id":"1b089ab9-8539-4638-b58b-c33c2ca87e42","meta":{"profile":["http://hl7.org/fhir/us/qicore/StructureDefinition/qicore-patient"]},"extension":[{"url":"http://hl7.org/fhir/us/core/StructureDefinition/us-core-race","extension":[{"url":"ombCategory","valueCoding":{"system":"urn:oid:2.16.840.1.113883.6.238","code":"2028-9","display":"Asian","userSelected":true}},{"url":"text","valueString":"Asian"}]},{"url":"http://hl7.org/fhir/us/core/StructureDefinition/us-core-ethnicity","extension":[{"url":"ombCategory","valueCoding":{"system":"urn:oid:2.16.840.1.113883.6.238","code":"2135-2","display":"Hispanic or Latino","userSelected":true}},{"url":"text","valueString":"Hispanic or Latino"}]}],"identifier":[{"type":{"coding":[{"system":"http://terminology.hl7.org/CodeSystem/v2-0203","code":"MR"}]},"system":"http://hospital.smarthealthit.org","value":"999999995"}],"name":[{"family":"Bertha","given":["Betty"]}],"gender":"female","birthDate":"1960-01-01"},"request":{"method":"PUT","url":"Patient/1b089ab9-8539-4638-b58b-c33c2ca87e42"}}]}