{"resourceType":"Bundle","id":"tests-f46ac4a7-66fd-49f6-a097-5712dcd97a18-bundle","type":"transaction","entry":[{"resource":{"resourceType":"MeasureReport","id":"0bf707a9-a69c-46f1-8859-99e161ad45f2","meta":{"profile":["http://hl7.org/fhir/us/cqfmeasures/StructureDefinition/test-case-cqfm"]},"contained":[{"resourceType":"Parameters","id":"e32a0a49-80fa-48dd-bff2-2ef09d398ced-parameters","parameter":[{"name":"subject","valueString":"f46ac4a7-66fd-49f6-a097-5712dcd97a18"}]}],"extension":[{"url":"http://hl7.org/fhir/us/cqfmeasures/StructureDefinition/cqfm-inputParameters","valueReference":{"reference":"#e32a0a49-80fa-48dd-bff2-2ef09d398ced-parameters"}},{"url":"http://hl7.org/fhir/us/cqfmeasures/StructureDefinition/cqfm-testCaseDescription","valueMarkdown":"Care services during MP"}],"modifierExtension":[{"url":"http://hl7.org/fhir/us/cqfmeasures/StructureDefinition/cqfm-isTestCase","valueBoolean":true}],"status":"complete","type":"individual","measure":"https://madie.cms.gov/Measure/FallsScreeningForFutureFallRiskFHIR","period":{"start":"2025-01-01","end":"2025-12-31"},"group":[{"id":"66460d21a7a1805d3b737638","population":[{"id":"2D808FE0-EB48-4C22-AE0B-30D8366063DE","code":{"coding":[{"system":"http://terminology.hl7.org/CodeSystem/measure-population","code":"initial-population","display":"Initial Population"}]},"count":1},{"id":"709305F8-74DE-4F12-9CC8-1A2B8FE03B2B","code":{"coding":[{"system":"http://terminology.hl7.org/CodeSystem/measure-population","code":"denominator","display":"Denominator"}]},"count":1},{"id":"4F4250DE-FB16-4B83-AA88-5ADBB5E7BF81","code":{"coding":[{"system":"http://terminology.hl7.org/CodeSystem/measure-population","code":"denominator-exclusion","display":"Denominator Exclusion"}]},"count":0},{"id":"E1451EC9-61D2-464A-9591-57DB230076A1","code":{"coding":[{"system":"http://terminology.hl7.org/CodeSystem/measure-population","code":"numerator","display":"Numerator"}]},"count":0}],"measureScore":{"value":1}}],"evaluatedResource":[{"reference":"Patient/f46ac4a7-66fd-49f6-a097-5712dcd97a18"},{"reference":"Encounter/8eea2fe1-ce13-43d5-99ee-63fd3f184648"}]},"request":{"method":"PUT","url":"MeasureReport/0bf707a9-a69c-46f1-8859-99e161ad45f2"}},{"resource":{"resourceType":"Encounter","id":"8eea2fe1-ce13-43d5-99ee-63fd3f184648","meta":{"profile":["http://hl7.org/fhir/us/qicore/StructureDefinition/qicore-encounter"]},"status":"finished","class":{"system":"http://terminology.hl7.org/CodeSystem/v3-ActCode","code":"AMB","display":"ambulatory"},"type":[{"coding":[{"system":"http://snomed.info/sct","code":"210098006","display":"Domiciliary or rest home patient evaluation and management (procedure)"}]}],"subject":{"reference":"Patient/f46ac4a7-66fd-49f6-a097-5712dcd97a18"},"period":{"start":"2025-01-01T00:00:00.000Z","end":"2025-01-01T01:00:00.000Z"}},"request":{"method":"PUT","url":"Encounter/8eea2fe1-ce13-43d5-99ee-63fd3f184648"}},{"resource":{"resourceType":"Patient","id":"f46ac4a7-66fd-49f6-a097-5712dcd97a18","meta":{"profile":["http://hl7.org/fhir/us/qicore/StructureDefinition/qicore-patient"]},"extension":[{"url":"http://hl7.org/fhir/us/core/StructureDefinition/us-core-race","extension":[{"url":"ombCategory","valueCoding":{"system":"urn:oid:2.16.840.1.113883.6.238","code":"2028-9","display":"Asian","userSelected":true}},{"url":"text","valueString":"Asian"}]},{"url":"http://hl7.org/fhir/us/core/StructureDefinition/us-core-ethnicity","extension":[{"url":"ombCategory","valueCoding":{"system":"urn:oid:2.16.840.1.113883.6.238","code":"2135-2","display":"Hispanic or Latino","userSelected":true}},{"url":"text","valueString":"Hispanic or Latino"}]}],"identifier":[{"type":{"coding":[{"system":"http://terminology.hl7.org/CodeSystem/v2-0203","code":"MR"}]},"system":"http://hospital.smarthealthit.org","value":"999999995"}],"name":[{"family":"Bertha","given":["Betty"]}],"gender":"female","birthDate":"1960-01-01"},"request":{"method":"PUT","url":"Patient/f46ac4a7-66fd-49f6-a097-5712dcd97a18"}}]}