{"resourceType":"Bundle","id":"tests-88bd2a94-332b-4e75-8fbe-7581c3f9793a-bundle","type":"transaction","entry":[{"resource":{"resourceType":"MeasureReport","id":"644a1cf0-2940-4cda-8d71-c325c290e9f2","meta":{"profile":["http://hl7.org/fhir/us/cqfmeasures/StructureDefinition/test-case-cqfm"]},"contained":[{"resourceType":"Parameters","id":"43d95f81-ae04-4901-99f4-4d4e4d13bfa7-parameters","parameter":[{"name":"subject","valueString":"88bd2a94-332b-4e75-8fbe-7581c3f9793a"}]}],"extension":[{"url":"http://hl7.org/fhir/us/cqfmeasures/StructureDefinition/cqfm-inputParameters","valueReference":{"reference":"#43d95f81-ae04-4901-99f4-4d4e4d13bfa7-parameters"}},{"url":"http://hl7.org/fhir/us/cqfmeasures/StructureDefinition/cqfm-testCaseDescription","valueMarkdown":"Counseling during the MP"}],"modifierExtension":[{"url":"http://hl7.org/fhir/us/cqfmeasures/StructureDefinition/cqfm-isTestCase","valueBoolean":true}],"status":"complete","type":"individual","measure":"https://madie.cms.gov/Measure/FallsScreeningForFutureFallRiskFHIR","period":{"start":"2025-01-01","end":"2025-12-31"},"group":[{"id":"66460d21a7a1805d3b737638","population":[{"id":"2D808FE0-EB48-4C22-AE0B-30D8366063DE","code":{"coding":[{"system":"http://terminology.hl7.org/CodeSystem/measure-population","code":"initial-population","display":"Initial Population"}]},"count":1},{"id":"709305F8-74DE-4F12-9CC8-1A2B8FE03B2B","code":{"coding":[{"system":"http://terminology.hl7.org/CodeSystem/measure-population","code":"denominator","display":"Denominator"}]},"count":1},{"id":"4F4250DE-FB16-4B83-AA88-5ADBB5E7BF81","code":{"coding":[{"system":"http://terminology.hl7.org/CodeSystem/measure-population","code":"denominator-exclusion","display":"Denominator Exclusion"}]},"count":0},{"id":"E1451EC9-61D2-464A-9591-57DB230076A1","code":{"coding":[{"system":"http://terminology.hl7.org/CodeSystem/measure-population","code":"numerator","display":"Numerator"}]},"count":0}],"measureScore":{"value":1}}],"evaluatedResource":[{"reference":"Patient/88bd2a94-332b-4e75-8fbe-7581c3f9793a"},{"reference":"Encounter/b66c6a45-9a34-4e96-8ec5-4a201e963060"}]},"request":{"method":"PUT","url":"MeasureReport/644a1cf0-2940-4cda-8d71-c325c290e9f2"}},{"resource":{"resourceType":"Encounter","id":"b66c6a45-9a34-4e96-8ec5-4a201e963060","meta":{"profile":["http://hl7.org/fhir/us/qicore/StructureDefinition/qicore-encounter"]},"status":"finished","class":{"system":"http://terminology.hl7.org/CodeSystem/v3-ActCode","code":"AMB","display":"ambulatory"},"type":[{"coding":[{"system":"http://www.ama-assn.org/go/cpt","version":"2024","code":"99401","display":"Preventive medicine counseling and/or risk factor reduction intervention(s) provided to an individual (separate procedure); approximately 15 minutes"}]}],"subject":{"reference":"Patient/88bd2a94-332b-4e75-8fbe-7581c3f9793a"},"period":{"start":"2025-01-01T00:00:00.000Z","end":"2025-01-01T00:15:00.000Z"}},"request":{"method":"PUT","url":"Encounter/b66c6a45-9a34-4e96-8ec5-4a201e963060"}},{"resource":{"resourceType":"Patient","id":"88bd2a94-332b-4e75-8fbe-7581c3f9793a","meta":{"profile":["http://hl7.org/fhir/us/qicore/StructureDefinition/qicore-patient"]},"extension":[{"url":"http://hl7.org/fhir/us/core/StructureDefinition/us-core-race","extension":[{"url":"ombCategory","valueCoding":{"system":"urn:oid:2.16.840.1.113883.6.238","code":"2028-9","display":"Asian","userSelected":true}},{"url":"text","valueString":"Asian"}]},{"url":"http://hl7.org/fhir/us/core/StructureDefinition/us-core-ethnicity","extension":[{"url":"ombCategory","valueCoding":{"system":"urn:oid:2.16.840.1.113883.6.238","code":"2135-2","display":"Hispanic or Latino","userSelected":true}},{"url":"text","valueString":"Hispanic or Latino"}]}],"identifier":[{"type":{"coding":[{"system":"http://terminology.hl7.org/CodeSystem/v2-0203","code":"MR"}]},"system":"http://hospital.smarthealthit.org","value":"999999995"}],"name":[{"family":"Bertha","given":["Betty"]}],"gender":"female","birthDate":"1960-01-01"},"request":{"method":"PUT","url":"Patient/88bd2a94-332b-4e75-8fbe-7581c3f9793a"}}]}